subject,trial,block,task,task_onset,task_duration,word,word_onset,word_duration,mean_valence,mean_arousal,valence,letters,frequency,concreteness,part_of_speech,imageability,options_onset,options_duration,response,RT,iti_duration
777,1,1,Positive,0.003,0.998,traitor,1.001,3.003,2.39,4.27,0,7,540,3.69,noun,3.48,4.005,2.653,yes,0.619,1.001
777,2,1,Describes,7.669,0.991,ambition,8.659,3.003,7.28,4.86,1,8,273,1.74,noun,3.26,11.663,3.287,no,1.269,1.001
777,3,1,Describes,15.955,0.996,volunteer,16.952,3.003,7.35,3.95,1,9,475,3.77,noun,4.06,19.955,2.419,no,0.401,2.002
777,4,1,Positive,24.384,0.993,mentor,25.378,3.003,7.05,3.5,1,6,178,3.7,noun,3.96,28.381,3.437,no,1.419,0.501
777,5,1,Positive,32.323,0.997,seeker,33.320,3.003,6.33,4.95,1,6,47,3.44,noun,2.52,36.323,4.555,no,2.537,0.501
777,6,1,Describes,41.387,0.993,stinky,42.379,3.003,3.16,3.76,0,6,182,3.73,adj,4.12,45.383,3.036,no,1.018,1.001
777,7,1,Positive,49.428,0.993,sad,50.422,3.003,2.1,3.49,0,3,3232,3.07,adj,4.44,53.425,2.786,no,0.768,0.501
777,8,1,Positive,56.717,0.996,awkward,57.713,3.003,2.95,4.55,0,7,730,2.0,noun,3.62,60.716,2.252,no,0.234,1.001
777,9,1,Describes,63.979,0.991,selfish,64.971,3.003,3.3,4.57,0,7,811,1.92,adj,3.52,67.974,3.787,yes,1.769,0.501
777,10,1,Describes,72.267,0.996,lazy,73.263,3.003,3.05,3.05,0,4,591,2.67,adj,3.68,76.267,4.905,yes,2.887,1.001
777,11,1,Positive,82.181,0.992,carefree,83.174,3.003,7.32,4.15,1,8,69,1.88,adj,3.02,86.177,5.422,yes,3.404,1.001
777,12,1,Positive,92.605,0.997,alone,93.602,3.003,3.85,4.0,0,5,15735,2.86,noun,4.24,96.605,2.653,no,0.635,2.002
777,13,1,Positive,101.266,0.995,healthy,102.261,3.003,7.76,4.19,1,7,1262,3.31,adj,4.14,105.265,9.760,no,7.743,2.002
777,14,1,Describes,117.039,0.990,anxiety,118.028,3.003,2.38,4.78,0,7,345,2.21,noun,3.48,121.032,2.452,yes,0.435,0.501
777,15,1,Positive,123.994,0.992,wellness,124.986,3.003,7.67,4.56,1,8,21,2.0,noun,3.44,127.989,6.524,yes,4.506,1.001
777,16,1,Positive,135.518,0.997,allure,136.515,3.003,6.9,4.25,1,6,30,1.92,noun,2.66,139.519,3.203,yes,1.185,0.501
777,17,1,Describes,143.233,0.991,charitable,144.224,3.003,7.33,3.5,1,10,104,2.13,adj,3.4,147.227,3.303,no,1.285,2.002
777,18,1,Describes,152.537,0.997,dropout,153.534,3.003,3.33,4.7,0,7,43,3.52,noun,2.82,156.537,4.421,no,2.388,0.501
777,19,1,Positive,161.467,0.993,loser,162.460,3.003,2.85,3.94,0,5,1381,2.35,noun,3.56,165.464,4.038,no,2.020,0.500
777,20,1,Positive,170.007,0.996,irresponsible,171.003,3.003,2.5,5.0,0,13,237,2.04,adj,2.92,174.006,3.554,no,1.536,1.001
777,21,1,Positive,178.567,0.995,unwelcome,179.562,3.003,3.5,4.39,0,9,37,2.0,adj,2.46,182.565,3.704,yes,1.671,1.001
777,22,1,Positive,187.274,0.997,gloom,188.271,3.003,2.89,3.9,0,5,59,1.86,noun,3.94,191.275,2.603,yes,0.569,0.501
777,23,1,Positive,194.383,0.996,dreamer,195.379,3.003,7.45,4.4,1,7,155,2.19,noun,3.78,198.383,2.519,yes,0.486,2.002
777,24,1,Describes,202.914,0.991,lovable,203.905,3.003,8.26,5.41,1,7,91,1.97,adj,3.8,206.909,8.142,yes,6.124,1.001
777,25,1,Describes,216.055,0.997,filth,217.053,3.003,2.62,4.09,0,5,231,4.14,noun,5.04,220.056,3.237,no,1.219,0.501
777,26,1,Describes,223.797,0.997,spirited,224.795,3.003,7.57,5.21,1,8,62,1.67,adj,3.32,227.798,11.763,yes,9.745,1.001
777,27,1,Describes,240.565,0.998,unity,241.563,3.003,6.67,4.8,1,5,138,2.23,noun,3.2,244.566,2.402,yes,0.385,2.002
777,28,1,Positive,248.983,0.989,excellence,249.972,3.003,7.87,5.3,1,10,134,2.2,noun,2.84,252.975,2.352,yes,0.335,0.501
777,29,1,Describes,255.839,0.991,admired,256.829,3.003,7.25,5.95,1,7,187,1.84,adj,3.4,259.833,2.452,no,0.435,0.501
777,30,1,Positive,262.796,0.991,respectful,263.787,3.003,7.45,3.32,1,10,97,2.19,adj,3.32,266.790,2.653,no,0.635,0.501
777,31,1,Positive,269.948,0.997,turnoff,270.945,3.003,2.85,4.26,0,7,36,2.36,noun,2.72,273.948,2.686,no,0.668,0.501
777,32,1,Positive,277.139,0.997,friend,278.136,3.003,6.79,4.29,1,6,21384,3.07,noun,4.78,281.139,2.352,no,0.319,0.501
777,33,1,Describes,284.003,0.990,disappointment,284.993,3.003,2.79,4.9,0,14,277,1.93,noun,3.34,287.997,2.619,no,0.601,1.001
777,34,1,Positive,291.626,0.992,regret,292.618,3.003,3.41,4.9,0,6,1384,1.8,noun,2.82,295.622,2.419,no,0.401,0.501
777,35,1,Positive,298.547,0.996,relaxed,299.543,3.003,7.25,2.49,1,7,356,2.5,adj,4.44,302.546,3.103,no,1.085,0.501
777,36,1,Describes,306.159,0.992,cynic,307.151,3.003,3.45,4.68,0,5,56,2.64,noun,2.98,310.154,2.586,no,0.568,2.002
777,37,1,Describes,314.746,0.997,irritating,315.744,3.003,2.63,4.91,0,10,111,2.1,adj,2.92,318.747,2.619,no,0.602,0.501
777,38,1,Describes,321.871,0.997,hesitation,322.868,3.003,3.67,3.61,0,10,94,2.59,noun,3.18,325.871,2.653,no,0.620,1.001
777,39,1,Describes,329.529,0.997,captive,330.526,3.003,3.27,4.88,0,7,116,3.03,noun,3.82,333.530,2.636,no,0.618,1.001
777,40,1,Positive,337.176,0.992,enthusiastic,338.168,3.003,7.55,5.9,1,12,142,2.76,adj,3.76,341.172,4.271,no,2.253,0.501
777,41,1,Positive,345.948,0.996,disgrace,346.944,3.003,2.45,4.28,0,8,409,2.11,noun,2.98,349.948,7.658,yes,5.640,0.501
777,42,1,Positive,358.111,0.997,bravery,359.107,3.003,7.38,5.84,1,7,147,1.96,noun,3.78,362.111,11.729,no,9.711,0.501
777,43,1,Positive,374.346,0.996,worthless,375.342,3.003,1.89,4.45,0,9,473,1.97,adj,2.62,378.345,4.221,no,2.203,0.501
777,44,1,Positive,383.072,0.996,jerk,384.068,3.003,2.43,6.45,0,4,1690,3.26,noun,4.16,387.071,2.653,no,0.635,0.501
777,45,1,Positive,390.230,0.996,sophistication,391.226,3.003,6.71,5.8,1,14,49,1.92,noun,3.62,394.229,2.636,no,0.618,0.501
777,46,1,Describes,397.376,0.991,romantic,398.367,3.003,7.61,5.12,1,8,1794,1.93,noun,4.32,401.370,5.572,no,3.555,2.002
777,47,1,Describes,408.950,0.996,bitterness,409.946,3.003,3.15,5.1,0,10,72,2.36,noun,3.32,412.950,10.011,no_response,999.000,1.001
777,48,1,Describes,425.968,0.997,champ,426.965,3.003,6.35,5.04,1,5,771,3.29,noun,4.6,429.968,3.420,no,1.402,2.002
777,49,1,Positive,435.399,0.993,disaster,436.392,3.003,1.71,6.35,0,8,881,3.07,noun,4.74,439.395,3.754,no,1.736,2.002
777,50,1,Describes,445.162,0.990,hypocrite,446.152,3.003,3.25,4.77,0,9,166,2.55,noun,3.1,449.156,2.386,yes,0.368,2.002
777,51,1,Describes,453.547,0.997,prize,454.545,3.003,8.0,5.5,1,5,1142,4.45,noun,4.54,457.548,2.603,yes,0.585,0.501
777,52,1,Describes,460.656,0.996,traveler,461.652,3.003,6.39,4.75,1,8,154,4.07,noun,4.66,464.656,2.653,yes,0.635,0.501
777,53,1,Describes,467.815,0.995,untrustworthy,468.810,3.003,2.67,4.8,0,13,21,2.0,adj,2.58,471.814,4.071,no,2.053,0.501
777,54,1,Positive,476.394,0.992,garbage,477.386,3.003,2.88,3.84,0,7,1331,4.69,noun,5.52,480.390,2.853,no,0.835,0.501
777,55,1,Describes,483.754,0.990,thinker,484.744,3.003,7.26,4.45,1,7,60,2.54,noun,4.1,487.748,2.536,no,0.518,0.501
777,56,1,Positive,490.790,0.995,dull,491.785,3.003,3.4,1.67,0,4,616,2.37,adj,3.14,494.789,2.469,no,0.451,0.501
777,57,1,Describes,497.770,0.989,unsuccessful,498.759,3.003,2.33,3.36,0,12,44,2.25,adj,2.46,501.763,2.619,no,0.601,2.002
777,58,1,Positive,506.393,0.992,idealist,507.385,3.003,6.55,4.19,1,8,34,1.52,noun,2.94,510.389,2.586,no,0.568,0.501
777,59,1,Describes,513.485,0.991,charm,514.477,3.003,7.34,4.51,1,5,794,2.76,noun,3.56,517.480,2.653,yes,0.635,0.501
777,60,1,Describes,520.638,0.996,progress,521.634,3.003,6.58,3.82,1,8,1084,2.12,noun,3.56,524.638,2.586,no,0.568,1.001
777,61,1,Positive,528.234,0.992,smiley,529.226,3.003,7.58,5.09,1,6,109,3.93,adj,5.1,532.229,2.586,yes,0.568,0.500
777,62,1,Positive,535.321,0.996,degenerate,536.317,3.003,2.7,4.68,0,10,93,2.04,noun,3.24,539.320,2.503,no,0.485,0.501
777,63,1,Positive,542.328,0.997,gentle,543.325,3.003,7.42,3.17,1,6,844,2.1,adj,4.08,546.328,2.486,no,0.468,2.002
777,64,1,Describes,550.830,0.987,dependable,551.817,3.003,7.24,3.5,1,10,85,1.86,adj,3.2,554.822,3.035,yes,1.017,2.002
777,65,1,Positive,559.867,0.993,partner,560.860,3.004,7.11,3.7,1,7,3836,3.53,noun,4.58,563.864,2.269,no,0.251,0.501
777,66,1,Describes,566.642,0.992,pest,567.634,3.003,2.67,5.14,0,4,146,3.96,noun,4.5,570.638,6.390,no,4.372,2.002
777,67,1,Describes,579.035,0.996,companion,580.031,3.003,7.25,4.06,1,9,323,3.75,noun,4.32,583.035,3.287,no,1.269,1.001
777,68,1,Positive,587.332,0.992,reject,588.324,3.003,2.95,4.78,0,6,216,2.4,noun,3.24,591.327,2.786,yes,0.768,0.501
777,69,1,Positive,594.619,0.996,wealth,595.615,3.003,7.33,5.24,1,6,324,2.63,noun,4.76,598.618,2.352,yes,0.334,2.002
777,70,1,Describes,602.986,0.988,achievement,603.974,3.003,7.28,5.57,1,11,178,2.37,noun,3.48,606.977,2.703,yes,0.670,2.002
777,71,1,Positive,611.691,0.993,failure,612.683,3.003,2.15,5.0,0,7,1021,2.08,noun,3.2,615.687,9.076,yes,7.059,2.002
777,72,1,Positive,626.769,0.998,safe,627.767,3.003,7.7,3.14,1,4,7303,3.41,adj,3.8,630.770,8.275,no,6.258,0.501
777,73,1,Describes,639.555,0.992,phony,640.547,3.003,2.52,4.4,0,5,421,2.19,noun,3.16,643.551,2.302,no,0.284,2.002
777,74,1,Describes,647.860,0.996,insecure,648.856,3.003,2.3,4.57,0,8,207,1.84,adj,2.82,651.860,2.503,no,0.485,1.001
777,75,1,Describes,655.369,0.995,heartbroken,656.364,3.003,1.95,6.6,0,11,93,2.37,adj,3.68,659.368,3.036,yes,1.019,2.002
777,76,1,Describes,664.409,0.999,pain,665.408,3.003,2.0,6.27,0,4,4995,3.5,noun,4.0,668.411,5.839,yes,3.822,0.501
777,77,1,Describes,674.756,0.996,unwanted,675.752,3.003,2.71,5.1,0,8,70,2.0,adj,2.52,678.756,3.437,yes,1.419,0.501
777,78,1,Positive,682.703,0.992,entertainer,683.694,3.003,6.48,6.15,1,11,84,4.17,noun,4.84,686.698,6.657,no,4.639,1.001
777,79,1,Positive,694.361,0.996,goodwill,695.357,3.003,6.47,4.95,1,8,167,2.54,noun,3.2,698.360,4.989,no,2.971,2.002
777,80,1,Describes,705.362,0.990,distress,706.352,3.003,3.25,4.0,0,8,371,2.66,noun,3.16,709.356,3.070,yes,1.052,0.501
777,81,1,Describes,712.932,0.995,scoundrel,713.927,3.003,3.25,6.26,0,9,152,2.93,noun,3.56,716.931,4.221,no,2.203,0.500
777,82,1,Describes,721.657,0.996,affectionate,722.653,3.003,7.23,4.77,1,12,115,2.28,adj,3.9,725.657,4.705,no,2.687,2.002
777,83,1,Describes,732.368,0.997,hopeful,733.365,3.003,7.44,4.84,1,7,152,1.7,adj,3.16,736.368,6.390,no,4.372,0.501
777,84,1,Positive,743.267,0.994,witty,744.260,3.003,7.25,5.65,1,5,163,2.21,adj,3.3,747.264,2.352,yes,0.335,0.501
777,85,1,Positive,750.121,0.996,terrible,751.118,3.003,2.1,4.39,0,8,4795,2.04,adj,3.1,754.121,2.603,yes,0.585,0.501
777,86,1,Positive,757.229,0.996,insulting,758.225,3.003,1.89,4.7,0,9,274,2.29,adj,3.06,761.229,2.569,yes,0.551,0.501
777,87,1,Describes,764.310,0.989,proficiency,765.300,3.003,6.79,3.86,1,11,21,1.96,noun,2.78,768.303,3.504,no,1.486,0.500
777,88,1,Describes,772.314,0.995,inadequate,773.308,3.003,2.57,4.3,0,10,95,1.96,adj,2.16,776.312,7.074,no,5.056,0.501
777,89,1,Describes,783.891,0.996,excited,784.888,3.003,8.11,6.43,1,7,2479,2.32,adj,4.02,787.891,2.536,no,0.518,0.501
777,90,1,Describes,790.931,0.997,smart,791.929,3.003,7.73,3.81,1,5,4909,1.75,adj,3.76,794.932,6.073,no,4.055,0.501
777,91,1,Positive,801.515,0.992,shame,802.507,3.003,2.62,5.4,0,5,2120,2.24,noun,3.28,805.511,2.819,no,0.802,2.002
777,92,1,Positive,810.336,0.997,mess,811.333,3.003,3.5,4.7,0,4,3985,3.9,noun,5.06,814.337,3.437,no,1.419,0.501
777,93,1,Describes,818.284,0.992,annoying,819.275,3.003,3.0,5.55,0,8,567,2.31,adj,3.14,822.279,2.386,yes,0.368,2.002
777,94,1,Positive,826.676,0.992,special,827.668,3.003,7.5,3.48,1,7,7577,1.76,adj,3.06,830.671,2.369,no,0.351,2.002
777,95,1,Positive,835.048,0.995,cleverness,836.043,3.003,6.95,5.55,1,10,26,2.07,noun,3.02,839.047,2.486,no,0.468,0.501
777,96,1,Describes,842.043,0.991,merit,843.034,3.003,6.94,3.16,1,5,173,1.66,noun,2.5,846.038,10.411,yes,8.393,0.501
777,97,1,Describes,856.954,0.997,humorous,857.951,3.003,7.81,5.33,1,8,75,2.23,adj,3.88,860.954,4.221,no,2.203,0.501
777,98,1,Describes,865.680,0.997,esteem,866.677,3.003,6.38,3.91,1,6,86,1.83,noun,2.42,869.680,2.452,yes,0.435,1.001
777,99,1,Positive,873.142,0.993,bastard,874.135,3.003,3.31,5.1,0,7,3348,3.14,noun,3.38,877.138,2.486,yes,0.468,0.500
777,100,1,Positive,880.129,0.997,victim,881.126,3.003,2.05,5.37,0,6,2434,3.59,noun,4.06,884.129,6.073,yes,4.055,0.501
777,101,2,Positive,922.811,0.995,witty,923.806,3.003,7.25,5.65,1,5,163,2.21,adj,3.3,926.809,4.438,no,2.420,0.501
777,102,2,Describes,931.759,0.990,untrustworthy,932.749,3.003,2.67,4.8,0,13,21,2.0,adj,2.58,935.752,2.770,no,0.752,1.001
777,103,2,Describes,939.527,0.997,humorous,940.524,3.003,7.81,5.33,1,8,75,2.23,adj,3.88,943.527,2.736,yes,0.718,0.501
777,104,2,Describes,946.770,0.995,proficiency,947.765,3.003,6.79,3.86,1,11,21,1.96,noun,2.78,950.769,2.619,no,0.601,2.002
777,105,2,Positive,955.399,0.992,special,956.391,3.003,7.5,3.48,1,7,7577,1.76,adj,3.06,959.395,2.603,no,0.585,0.500
777,106,2,Describes,962.508,0.991,dropout,963.499,3.003,3.33,4.7,0,7,43,3.52,noun,2.82,966.502,2.236,no,0.202,0.501
777,107,2,Describes,969.245,0.995,inadequate,970.240,3.003,2.57,4.3,0,10,95,1.96,adj,2.16,973.243,6.040,yes,4.022,0.500
777,108,2,Positive,979.792,0.993,alone,980.784,3.003,3.85,4.0,0,5,15735,2.86,noun,4.24,983.788,3.320,no,1.302,0.501
777,109,2,Positive,987.614,0.996,worthless,988.610,3.003,1.89,4.45,0,9,473,1.97,adj,2.62,991.613,2.486,yes,0.453,2.002
777,110,2,Positive,996.105,0.997,seeker,997.102,3.003,6.33,4.95,1,6,47,3.44,noun,2.52,1000.106,2.369,no,0.351,1.001
777,111,2,Positive,1003.481,0.996,entertainer,1004.477,3.003,6.48,6.15,1,11,84,4.17,noun,4.84,1007.480,5.689,no,3.656,0.500
777,112,2,Describes,1013.681,0.990,admired,1014.671,3.003,7.25,5.95,1,7,187,1.84,adj,3.4,1017.675,10.011,no_response,999.000,1.001
777,113,2,Positive,1030.697,0.993,shame,1031.690,3.003,2.62,5.4,0,5,2120,2.24,noun,3.28,1034.693,2.152,yes,0.134,2.002
777,114,2,Describes,1038.858,0.991,charitable,1039.849,3.003,7.33,3.5,1,10,104,2.13,adj,3.4,1042.852,5.055,no,3.038,1.001
777,115,2,Describes,1048.913,0.996,anxiety,1049.910,3.003,2.38,4.78,0,7,345,2.21,noun,3.48,1052.913,3.671,no,1.653,0.501
777,116,2,Positive,1057.092,0.993,mentor,1058.085,3.003,7.05,3.5,1,6,178,3.7,noun,3.96,1061.089,2.770,no,0.752,0.500
777,117,2,Positive,1064.364,0.996,friend,1065.360,3.003,6.79,4.29,1,6,21384,3.07,noun,4.78,1068.363,3.404,no,1.386,0.500
777,118,2,Positive,1072.273,0.996,healthy,1073.269,3.003,7.76,4.19,1,7,1262,3.31,adj,4.14,1076.272,4.805,no,2.787,0.501
777,119,2,Describes,1081.587,0.991,ambition,1082.579,3.003,7.28,4.86,1,8,273,1.74,noun,3.26,1085.582,2.886,no,0.869,2.002
777,120,2,Describes,1090.476,0.996,bitterness,1091.472,3.003,3.15,5.1,0,10,72,2.36,noun,3.32,1094.475,2.586,no,0.568,0.501
777,121,2,Positive,1097.570,0.992,regret,1098.563,3.003,3.41,4.9,0,6,1384,1.8,noun,2.82,1101.566,2.953,no,0.935,1.001
777,122,2,Positive,1105.525,0.997,bravery,1106.521,3.003,7.38,5.84,1,7,147,1.96,noun,3.78,1109.525,2.819,no,0.802,2.002
777,123,2,Positive,1114.352,0.996,reject,1115.348,3.003,2.95,4.78,0,6,216,2.4,noun,3.24,1118.351,2.553,no,0.519,1.001
777,124,2,Positive,1121.911,0.995,respectful,1122.906,3.003,7.45,3.32,1,10,97,2.19,adj,3.32,1125.909,2.503,yes,0.485,2.002
777,125,2,Describes,1130.423,0.992,smart,1131.415,3.003,7.73,3.81,1,5,4909,1.75,adj,3.76,1134.419,2.603,yes,0.585,2.002
777,126,2,Describes,1139.027,0.997,annoying,1140.025,3.003,3.0,5.55,0,8,567,2.31,adj,3.14,1143.028,2.669,no,0.651,0.501
777,127,2,Positive,1146.207,0.992,relaxed,1147.199,3.003,7.25,2.49,1,7,356,2.5,adj,4.44,1150.203,2.819,yes,0.802,0.500
777,128,2,Describes,1153.533,0.991,esteem,1154.524,3.003,6.38,3.91,1,6,86,1.83,noun,2.42,1157.527,2.736,no,0.703,0.501
777,129,2,Describes,1160.768,0.997,progress,1161.765,3.003,6.58,3.82,1,8,1084,2.12,noun,3.56,1164.768,4.405,no,2.387,1.001
777,130,2,Describes,1170.178,0.997,cynic,1171.175,3.003,3.45,4.68,0,5,56,2.64,noun,2.98,1174.179,2.619,no,0.601,0.501
777,131,2,Describes,1177.303,0.996,selfish,1178.299,3.003,3.3,4.57,0,7,811,1.92,adj,3.52,1181.303,2.553,no,0.519,1.001
777,132,2,Positive,1184.866,0.992,sophistication,1185.858,3.003,6.71,5.8,1,14,49,1.92,noun,3.62,1188.861,2.686,no,0.668,2.002
777,133,2,Describes,1193.560,0.991,excited,1194.550,3.003,8.11,6.43,1,7,2479,2.32,adj,4.02,1197.554,4.171,no,2.153,2.002
777,134,2,Describes,1203.730,0.998,pest,1204.728,3.003,2.67,5.14,0,4,146,3.96,noun,4.5,1207.732,2.603,no,0.585,2.002
777,135,2,Positive,1212.343,0.995,dull,1213.338,3.003,3.4,1.67,0,4,616,2.37,adj,3.14,1216.341,4.989,no,2.971,0.501
777,136,2,Positive,1221.835,0.996,disgrace,1222.831,3.003,2.45,4.28,0,8,409,2.11,noun,2.98,1225.835,2.653,no,0.619,0.500
777,137,2,Positive,1228.994,0.996,irresponsible,1229.989,3.003,2.5,5.0,0,13,237,2.04,adj,2.92,1232.993,2.653,no,0.635,2.002
777,138,2,Positive,1237.652,0.997,gloom,1238.649,3.003,2.89,3.9,0,5,59,1.86,noun,3.94,1241.652,2.603,no,0.585,0.501
777,139,2,Positive,1244.759,0.997,allure,1245.756,3.003,6.9,4.25,1,6,30,1.92,noun,2.66,1248.760,2.553,yes,0.535,0.501
777,140,2,Positive,1251.817,0.997,loser,1252.814,3.003,2.85,3.94,0,5,1381,2.35,noun,3.56,1255.817,2.786,no,0.768,1.001
777,141,2,Describes,1259.617,0.989,distress,1260.606,3.003,3.25,4.0,0,8,371,2.66,noun,3.16,1263.609,2.369,yes,0.351,0.501
777,142,2,Describes,1266.485,0.995,affectionate,1267.480,3.003,7.23,4.77,1,12,115,2.28,adj,3.9,1270.483,2.402,no,0.385,0.500
777,143,2,Positive,1273.394,0.994,jerk,1274.387,3.003,2.43,6.45,0,4,1690,3.26,noun,4.16,1277.391,2.636,no,0.618,2.002
777,144,2,Describes,1282.039,0.991,companion,1283.030,3.003,7.25,4.06,1,9,323,3.75,noun,4.32,1286.034,2.452,no,0.435,2.002
777,145,2,Positive,1290.497,0.992,terrible,1291.489,3.003,2.1,4.39,0,8,4795,2.04,adj,3.1,1294.493,2.469,no,0.451,0.500
777,146,2,Describes,1297.473,0.991,hesitation,1298.464,3.003,3.67,3.61,0,10,94,2.59,noun,3.18,1301.467,2.653,no,0.635,2.002
777,147,2,Describes,1306.126,0.997,charm,1307.123,3.003,7.34,4.51,1,5,794,2.76,noun,3.56,1310.127,2.636,yes,0.618,0.500
777,148,2,Describes,1313.267,0.997,irritating,1314.264,3.003,2.63,4.91,0,10,111,2.1,adj,2.92,1317.268,2.519,no,0.501,1.001
777,149,2,Positive,1320.795,0.994,sad,1321.789,3.003,2.1,3.49,0,3,3232,3.07,adj,4.44,1324.792,2.486,no,0.468,2.002
777,150,2,Positive,1329.286,0.995,idealist,1330.282,3.003,6.55,4.19,1,8,34,1.52,noun,2.94,1333.285,2.202,no,0.184,2.002
777,151,2,Describes,1337.500,0.991,volunteer,1338.491,3.003,7.35,3.95,1,9,475,3.77,noun,4.06,1341.494,2.069,no,0.051,1.001
777,152,2,Describes,1344.569,0.996,hypocrite,1345.565,3.003,3.25,4.77,0,9,166,2.55,noun,3.1,1348.568,6.774,no,4.756,0.501
777,153,2,Describes,1355.846,0.997,phony,1356.844,3.003,2.52,4.4,0,5,421,2.19,noun,3.16,1359.847,3.720,no,1.703,1.001
777,154,2,Positive,1364.577,0.993,gentle,1365.570,3.003,7.42,3.17,1,6,844,2.1,adj,4.08,1368.573,2.703,no,0.685,1.001
777,155,2,Describes,1372.289,0.989,scoundrel,1373.278,3.003,3.25,6.26,0,9,152,2.93,noun,3.56,1376.282,4.421,yes,2.403,0.501
777,156,2,Positive,1381.211,0.994,traitor,1382.205,3.003,2.39,4.27,0,7,540,3.69,noun,3.48,1385.208,2.119,yes,0.101,0.500
777,157,2,Positive,1387.831,0.997,partner,1388.829,3.003,7.11,3.7,1,7,3836,3.53,noun,4.58,1391.832,4.455,no,2.437,1.001
777,158,2,Positive,1397.293,0.996,enthusiastic,1398.289,3.003,7.55,5.9,1,12,142,2.76,adj,3.76,1401.292,3.654,no,1.636,1.001
777,159,2,Describes,1405.957,0.991,insecure,1406.948,3.003,2.3,4.57,0,8,207,1.84,adj,2.82,1409.952,2.252,no,0.219,0.500
777,160,2,Positive,1412.713,0.992,garbage,1413.706,3.003,2.88,3.84,0,7,1331,4.69,noun,5.52,1416.709,3.103,no,1.085,0.501
777,161,2,Describes,1420.322,0.992,filth,1421.314,3.003,2.62,4.09,0,5,231,4.14,noun,5.04,1424.317,2.252,yes,0.234,0.501
777,162,2,Describes,1427.077,0.994,achievement,1428.071,3.003,7.28,5.57,1,11,178,2.37,noun,3.48,1431.075,2.669,no,0.652,2.002
777,163,2,Describes,1435.752,0.995,unsuccessful,1436.747,3.003,2.33,3.36,0,12,44,2.25,adj,2.46,1439.751,9.310,no,7.292,1.001
777,164,2,Describes,1450.067,0.996,traveler,1451.063,3.003,6.39,4.75,1,8,154,4.07,noun,4.66,1454.066,4.321,no,2.288,2.002
777,165,2,Describes,1460.396,0.995,dependable,1461.391,3.003,7.24,3.5,1,10,85,1.86,adj,3.2,1464.394,2.469,no,0.451,0.501
777,166,2,Describes,1467.370,0.995,heartbroken,1468.365,3.003,1.95,6.6,0,11,93,2.37,adj,3.68,1471.369,6.490,yes,4.457,1.001
777,167,2,Positive,1478.868,0.992,failure,1479.861,3.003,2.15,5.0,0,7,1021,2.08,noun,3.2,1482.864,3.153,no,1.135,0.501
777,168,2,Describes,1486.528,0.991,merit,1487.519,3.003,6.94,3.16,1,5,173,1.66,noun,2.5,1490.523,2.569,no,0.551,1.001
777,169,2,Describes,1494.096,0.998,stinky,1495.094,3.003,3.16,3.76,0,6,182,3.73,adj,4.12,1498.098,2.386,no,0.368,0.501
777,170,2,Positive,1500.994,0.991,unwelcome,1501.985,3.003,3.5,4.39,0,9,37,2.0,adj,2.46,1504.988,2.519,yes,0.501,2.002
777,171,2,Describes,1509.520,0.991,hopeful,1510.511,3.003,7.44,4.84,1,7,152,1.7,adj,3.16,1513.514,2.936,no,0.903,1.001
777,172,2,Positive,1517.461,0.992,degenerate,1518.453,3.003,2.7,4.68,0,10,93,2.04,noun,3.24,1521.456,10.011,no_response,999.000,2.002
777,173,2,Describes,1535.483,0.990,thinker,1536.473,3.003,7.26,4.45,1,7,60,2.54,noun,4.1,1539.476,5.289,no,3.271,1.001
777,174,2,Positive,1545.775,0.992,wealth,1546.767,3.003,7.33,5.24,1,6,324,2.63,noun,4.76,1549.771,2.569,no,0.551,0.501
777,175,2,Positive,1552.846,0.996,wellness,1553.841,3.003,7.67,4.56,1,8,21,2.0,noun,3.44,1556.845,2.502,no,0.485,2.002
777,176,2,Positive,1561.357,0.994,carefree,1562.351,3.003,7.32,4.15,1,8,69,1.88,adj,3.02,1565.354,10.011,no_response,999.000,1.001
777,177,2,Describes,1578.378,0.991,prize,1579.369,3.003,8.0,5.5,1,5,1142,4.45,noun,4.54,1582.373,3.454,yes,1.436,1.001
777,178,2,Positive,1586.836,0.993,insulting,1587.828,3.003,1.89,4.7,0,9,274,2.29,adj,3.06,1590.832,3.670,yes,1.652,1.001
777,179,2,Describes,1595.514,0.991,champ,1596.505,3.003,6.35,5.04,1,5,771,3.29,noun,4.6,1599.508,6.991,no,4.973,1.001
777,180,2,Describes,1607.504,0.997,lovable,1608.501,3.003,8.26,5.41,1,7,91,1.97,adj,3.8,1611.504,3.053,yes,1.035,2.002
777,181,2,Positive,1616.568,0.992,goodwill,1617.561,3.003,6.47,4.95,1,8,167,2.54,noun,3.2,1620.564,2.302,no,0.284,2.002
777,182,2,Positive,1624.875,0.995,excellence,1625.870,3.003,7.87,5.3,1,10,134,2.2,noun,2.84,1628.873,3.387,no,1.369,0.501
777,183,2,Positive,1632.765,0.997,disaster,1633.762,3.003,1.71,6.35,0,8,881,3.07,noun,4.74,1636.765,2.803,yes,0.770,0.501
777,184,2,Describes,1640.080,0.990,disappointment,1641.070,3.003,2.79,4.9,0,14,277,1.93,noun,3.34,1644.073,2.503,no,0.485,1.001
777,185,2,Positive,1647.585,0.993,turnoff,1648.578,3.003,2.85,4.26,0,7,36,2.36,noun,2.72,1651.581,2.302,no,0.285,0.501
777,186,2,Describes,1654.393,0.993,pain,1655.385,3.003,2.0,6.27,0,4,4995,3.5,noun,4.0,1658.389,2.503,no,0.485,0.500
777,187,2,Positive,1661.399,0.994,safe,1662.393,3.003,7.7,3.14,1,4,7303,3.41,adj,3.8,1665.396,2.486,no,0.468,0.501
777,188,2,Describes,1668.393,0.991,romantic,1669.384,3.003,7.61,5.12,1,8,1794,1.93,noun,4.32,1672.387,2.436,no,0.418,2.002
777,189,2,Positive,1676.834,0.992,awkward,1677.826,3.003,2.95,4.55,0,7,730,2.0,noun,3.62,1680.830,2.436,no,0.418,2.002
777,190,2,Describes,1685.277,0.992,unity,1686.269,3.003,6.67,4.8,1,5,138,2.23,noun,3.2,1689.272,7.658,no,5.640,0.500
777,191,2,Positive,1697.439,0.993,bastard,1698.432,3.003,3.31,5.1,0,7,3348,3.14,noun,3.38,1701.436,8.793,no,6.775,2.002
777,192,2,Positive,1712.236,0.995,cleverness,1713.232,3.003,6.95,5.55,1,10,26,2.07,noun,3.02,1716.235,7.775,no,5.757,2.002
777,193,2,Describes,1726.022,0.992,lazy,1727.013,3.003,3.05,3.05,0,4,591,2.67,adj,3.68,1730.017,2.319,no,0.301,0.500
777,194,2,Positive,1732.845,0.992,dreamer,1733.837,3.003,7.45,4.4,1,7,155,2.19,noun,3.78,1736.841,2.886,no,0.869,1.001
777,195,2,Describes,1740.738,0.991,captive,1741.729,3.003,3.27,4.88,0,7,116,3.03,noun,3.82,1744.733,3.971,no,1.953,0.501
777,196,2,Describes,1749.209,0.996,unwanted,1750.205,3.003,2.71,5.1,0,8,70,2.0,adj,2.52,1753.209,2.502,no,0.485,0.501
777,197,2,Positive,1756.220,0.993,victim,1757.213,3.003,2.05,5.37,0,6,2434,3.59,noun,4.06,1760.216,2.469,no,0.451,0.501
777,198,2,Positive,1763.190,0.998,mess,1764.187,3.003,3.5,4.7,0,4,3985,3.9,noun,5.06,1767.191,8.209,no,6.175,1.001
777,199,2,Describes,1776.411,0.991,spirited,1777.402,3.003,7.57,5.21,1,8,62,1.67,adj,3.32,1780.405,3.654,yes,1.636,2.002
777,200,2,Positive,1786.070,0.992,smiley,1787.062,3.003,7.58,5.09,1,6,109,3.93,adj,5.1,1790.066,2.402,no,0.385,1.001
